# E (eV)   ldos(E)   pdos(E)   
 -15.000  0.145E-05  0.145E-05
 -14.950  0.116E-05  0.116E-05
 -14.900  0.904E-06  0.904E-06
 -14.850  0.693E-06  0.693E-06
 -14.800  0.530E-06  0.530E-06
 -14.750  0.410E-06  0.410E-06
 -14.700  0.332E-06  0.332E-06
 -14.650  0.300E-06  0.300E-06
 -14.600  0.296E-06  0.296E-06
 -14.550  0.292E-06  0.292E-06
 -14.500  0.282E-06  0.282E-06
 -14.450  0.281E-06  0.281E-06
 -14.400  0.290E-06  0.290E-06
 -14.350  0.294E-06  0.294E-06
 -14.300  0.282E-06  0.282E-06
 -14.250  0.269E-06  0.269E-06
 -14.200  0.268E-06  0.268E-06
 -14.150  0.281E-06  0.281E-06
 -14.100  0.342E-06  0.342E-06
 -14.050  0.590E-06  0.590E-06
 -14.000  0.128E-05  0.128E-05
 -13.950  0.270E-05  0.270E-05
 -13.900  0.489E-05  0.489E-05
 -13.850  0.749E-05  0.749E-05
 -13.800  0.981E-05  0.981E-05
 -13.750  0.113E-04  0.113E-04
 -13.700  0.120E-04  0.120E-04
 -13.650  0.122E-04  0.122E-04
 -13.600  0.121E-04  0.121E-04
 -13.550  0.121E-04  0.121E-04
 -13.500  0.120E-04  0.120E-04
 -13.450  0.121E-04  0.121E-04
 -13.400  0.122E-04  0.122E-04
 -13.350  0.123E-04  0.123E-04
 -13.300  0.125E-04  0.125E-04
 -13.250  0.127E-04  0.127E-04
 -13.200  0.130E-04  0.130E-04
 -13.150  0.133E-04  0.133E-04
 -13.100  0.137E-04  0.137E-04
 -13.050  0.142E-04  0.142E-04
 -13.000  0.146E-04  0.146E-04
 -12.950  0.150E-04  0.150E-04
 -12.900  0.155E-04  0.155E-04
 -12.850  0.159E-04  0.159E-04
 -12.800  0.164E-04  0.164E-04
 -12.750  0.169E-04  0.169E-04
 -12.700  0.172E-04  0.172E-04
 -12.650  0.172E-04  0.172E-04
 -12.600  0.168E-04  0.168E-04
 -12.550  0.164E-04  0.164E-04
 -12.500  0.161E-04  0.161E-04
 -12.450  0.161E-04  0.161E-04
 -12.400  0.163E-04  0.163E-04
 -12.350  0.166E-04  0.166E-04
 -12.300  0.170E-04  0.170E-04
 -12.250  0.173E-04  0.173E-04
 -12.200  0.176E-04  0.176E-04
 -12.150  0.177E-04  0.177E-04
 -12.100  0.178E-04  0.178E-04
 -12.050  0.179E-04  0.179E-04
 -12.000  0.180E-04  0.180E-04
 -11.950  0.180E-04  0.180E-04
 -11.900  0.179E-04  0.179E-04
 -11.850  0.179E-04  0.179E-04
 -11.800  0.178E-04  0.178E-04
 -11.750  0.177E-04  0.177E-04
 -11.700  0.175E-04  0.175E-04
 -11.650  0.174E-04  0.174E-04
 -11.600  0.172E-04  0.172E-04
 -11.550  0.170E-04  0.170E-04
 -11.500  0.168E-04  0.168E-04
 -11.450  0.167E-04  0.167E-04
 -11.400  0.167E-04  0.167E-04
 -11.350  0.168E-04  0.168E-04
 -11.300  0.170E-04  0.170E-04
 -11.250  0.174E-04  0.174E-04
 -11.200  0.179E-04  0.179E-04
 -11.150  0.183E-04  0.183E-04
 -11.100  0.185E-04  0.185E-04
 -11.050  0.185E-04  0.185E-04
 -11.000  0.184E-04  0.184E-04
 -10.950  0.182E-04  0.182E-04
 -10.900  0.181E-04  0.181E-04
 -10.850  0.179E-04  0.179E-04
 -10.800  0.177E-04  0.177E-04
 -10.750  0.175E-04  0.175E-04
 -10.700  0.173E-04  0.173E-04
 -10.650  0.171E-04  0.171E-04
 -10.600  0.170E-04  0.170E-04
 -10.550  0.168E-04  0.168E-04
 -10.500  0.165E-04  0.165E-04
 -10.450  0.163E-04  0.163E-04
 -10.400  0.162E-04  0.162E-04
 -10.350  0.162E-04  0.162E-04
 -10.300  0.161E-04  0.161E-04
 -10.250  0.160E-04  0.160E-04
 -10.200  0.160E-04  0.160E-04
 -10.150  0.162E-04  0.162E-04
 -10.100  0.163E-04  0.163E-04
 -10.050  0.162E-04  0.162E-04
 -10.000  0.163E-04  0.163E-04
  -9.950  0.167E-04  0.167E-04
  -9.900  0.171E-04  0.171E-04
  -9.850  0.174E-04  0.174E-04
  -9.800  0.176E-04  0.176E-04
  -9.750  0.179E-04  0.179E-04
  -9.700  0.179E-04  0.179E-04
  -9.650  0.176E-04  0.176E-04
  -9.600  0.172E-04  0.172E-04
  -9.550  0.170E-04  0.170E-04
  -9.500  0.174E-04  0.174E-04
  -9.450  0.178E-04  0.178E-04
  -9.400  0.182E-04  0.182E-04
  -9.350  0.185E-04  0.185E-04
  -9.300  0.190E-04  0.190E-04
  -9.250  0.197E-04  0.197E-04
  -9.200  0.204E-04  0.204E-04
  -9.150  0.209E-04  0.209E-04
  -9.100  0.215E-04  0.215E-04
  -9.050  0.224E-04  0.224E-04
  -9.000  0.233E-04  0.233E-04
  -8.950  0.241E-04  0.241E-04
  -8.900  0.249E-04  0.249E-04
  -8.850  0.259E-04  0.259E-04
  -8.800  0.270E-04  0.270E-04
  -8.750  0.284E-04  0.284E-04
  -8.700  0.303E-04  0.303E-04
  -8.650  0.355E-04  0.355E-04
  -8.600  0.578E-04  0.578E-04
  -8.550  0.142E-03  0.142E-03
  -8.500  0.392E-03  0.392E-03
  -8.450  0.971E-03  0.971E-03
  -8.400  0.200E-02  0.200E-02
  -8.350  0.344E-02  0.344E-02
  -8.300  0.500E-02  0.500E-02
  -8.250  0.638E-02  0.638E-02
  -8.200  0.748E-02  0.748E-02
  -8.150  0.839E-02  0.839E-02
  -8.100  0.924E-02  0.924E-02
  -8.050  0.990E-02  0.990E-02
  -8.000  0.999E-02  0.999E-02
  -7.950  0.915E-02  0.915E-02
  -7.900  0.746E-02  0.746E-02
  -7.850  0.558E-02  0.558E-02
  -7.800  0.423E-02  0.423E-02
  -7.750  0.369E-02  0.369E-02
  -7.700  0.374E-02  0.374E-02
  -7.650  0.398E-02  0.398E-02
  -7.600  0.416E-02  0.416E-02
  -7.550  0.422E-02  0.422E-02
  -7.500  0.419E-02  0.419E-02
  -7.450  0.413E-02  0.413E-02
  -7.400  0.405E-02  0.405E-02
  -7.350  0.396E-02  0.396E-02
  -7.300  0.387E-02  0.387E-02
  -7.250  0.377E-02  0.377E-02
  -7.200  0.367E-02  0.367E-02
  -7.150  0.356E-02  0.356E-02
  -7.100  0.344E-02  0.344E-02
  -7.050  0.332E-02  0.332E-02
  -7.000  0.321E-02  0.321E-02
  -6.950  0.310E-02  0.310E-02
  -6.900  0.301E-02  0.301E-02
  -6.850  0.291E-02  0.291E-02
  -6.800  0.280E-02  0.280E-02
  -6.750  0.271E-02  0.271E-02
  -6.700  0.262E-02  0.262E-02
  -6.650  0.255E-02  0.255E-02
  -6.600  0.248E-02  0.248E-02
  -6.550  0.241E-02  0.241E-02
  -6.500  0.233E-02  0.233E-02
  -6.450  0.224E-02  0.224E-02
  -6.400  0.215E-02  0.215E-02
  -6.350  0.207E-02  0.207E-02
  -6.300  0.198E-02  0.198E-02
  -6.250  0.190E-02  0.190E-02
  -6.200  0.183E-02  0.183E-02
  -6.150  0.176E-02  0.176E-02
  -6.100  0.169E-02  0.169E-02
  -6.050  0.163E-02  0.163E-02
  -6.000  0.157E-02  0.157E-02
  -5.950  0.151E-02  0.151E-02
  -5.900  0.145E-02  0.145E-02
  -5.850  0.140E-02  0.140E-02
  -5.800  0.134E-02  0.134E-02
  -5.750  0.128E-02  0.128E-02
  -5.700  0.122E-02  0.122E-02
  -5.650  0.117E-02  0.117E-02
  -5.600  0.112E-02  0.112E-02
  -5.550  0.107E-02  0.107E-02
  -5.500  0.102E-02  0.102E-02
  -5.450  0.985E-03  0.985E-03
  -5.400  0.960E-03  0.960E-03
  -5.350  0.951E-03  0.951E-03
  -5.300  0.952E-03  0.952E-03
  -5.250  0.951E-03  0.951E-03
  -5.200  0.933E-03  0.933E-03
  -5.150  0.897E-03  0.897E-03
  -5.100  0.849E-03  0.849E-03
  -5.050  0.796E-03  0.796E-03
  -5.000  0.743E-03  0.743E-03
  -4.950  0.699E-03  0.699E-03
  -4.900  0.666E-03  0.666E-03
  -4.850  0.633E-03  0.633E-03
  -4.800  0.597E-03  0.597E-03
  -4.750  0.560E-03  0.560E-03
  -4.700  0.525E-03  0.525E-03
  -4.650  0.494E-03  0.494E-03
  -4.600  0.469E-03  0.469E-03
  -4.550  0.451E-03  0.451E-03
  -4.500  0.439E-03  0.439E-03
  -4.450  0.424E-03  0.424E-03
  -4.400  0.403E-03  0.403E-03
  -4.350  0.375E-03  0.375E-03
  -4.300  0.344E-03  0.344E-03
  -4.250  0.309E-03  0.309E-03
  -4.200  0.273E-03  0.273E-03
  -4.150  0.239E-03  0.239E-03
  -4.100  0.207E-03  0.207E-03
  -4.050  0.178E-03  0.178E-03
  -4.000  0.150E-03  0.150E-03
  -3.950  0.124E-03  0.124E-03
  -3.900  0.100E-03  0.100E-03
  -3.850  0.799E-04  0.799E-04
  -3.800  0.623E-04  0.623E-04
  -3.750  0.476E-04  0.476E-04
  -3.700  0.366E-04  0.366E-04
  -3.650  0.289E-04  0.289E-04
  -3.600  0.233E-04  0.233E-04
  -3.550  0.193E-04  0.193E-04
  -3.500  0.164E-04  0.164E-04
  -3.450  0.147E-04  0.147E-04
  -3.400  0.137E-04  0.137E-04
  -3.350  0.131E-04  0.131E-04
  -3.300  0.126E-04  0.126E-04
  -3.250  0.122E-04  0.122E-04
  -3.200  0.117E-04  0.117E-04
  -3.150  0.112E-04  0.112E-04
  -3.100  0.106E-04  0.106E-04
  -3.050  0.103E-04  0.103E-04
  -3.000  0.101E-04  0.101E-04
  -2.950  0.963E-05  0.963E-05
  -2.900  0.896E-05  0.896E-05
  -2.850  0.835E-05  0.835E-05
  -2.800  0.789E-05  0.789E-05
  -2.750  0.749E-05  0.749E-05
  -2.700  0.712E-05  0.712E-05
  -2.650  0.688E-05  0.688E-05
  -2.600  0.678E-05  0.678E-05
  -2.550  0.667E-05  0.667E-05
  -2.500  0.646E-05  0.646E-05
  -2.450  0.629E-05  0.629E-05
  -2.400  0.627E-05  0.627E-05
  -2.350  0.633E-05  0.633E-05
  -2.300  0.643E-05  0.643E-05
  -2.250  0.662E-05  0.662E-05
  -2.200  0.691E-05  0.691E-05
  -2.150  0.715E-05  0.715E-05
  -2.100  0.725E-05  0.725E-05
  -2.050  0.732E-05  0.732E-05
  -2.000  0.748E-05  0.748E-05
  -1.950  0.764E-05  0.764E-05
  -1.900  0.767E-05  0.767E-05
  -1.850  0.759E-05  0.759E-05
  -1.800  0.752E-05  0.752E-05
  -1.750  0.744E-05  0.744E-05
  -1.700  0.728E-05  0.728E-05
  -1.650  0.714E-05  0.714E-05
  -1.600  0.716E-05  0.716E-05
  -1.550  0.731E-05  0.731E-05
  -1.500  0.739E-05  0.739E-05
  -1.450  0.736E-05  0.736E-05
  -1.400  0.733E-05  0.733E-05
  -1.350  0.734E-05  0.734E-05
  -1.300  0.725E-05  0.725E-05
  -1.250  0.704E-05  0.704E-05
  -1.200  0.683E-05  0.683E-05
  -1.150  0.664E-05  0.664E-05
  -1.100  0.633E-05  0.633E-05
  -1.050  0.591E-05  0.591E-05
  -1.000  0.546E-05  0.546E-05
  -0.950  0.495E-05  0.495E-05
  -0.900  0.431E-05  0.431E-05
  -0.850  0.358E-05  0.358E-05
  -0.800  0.289E-05  0.289E-05
  -0.750  0.234E-05  0.234E-05
  -0.700  0.214E-05  0.214E-05
  -0.650  0.253E-05  0.253E-05
  -0.600  0.359E-05  0.359E-05
  -0.550  0.530E-05  0.530E-05
  -0.500  0.766E-05  0.766E-05
  -0.450  0.106E-04  0.106E-04
  -0.400  0.142E-04  0.142E-04
  -0.350  0.185E-04  0.185E-04
  -0.300  0.239E-04  0.239E-04
  -0.250  0.305E-04  0.305E-04
  -0.200  0.384E-04  0.384E-04
  -0.150  0.486E-04  0.486E-04
  -0.100  0.620E-04  0.620E-04
  -0.050  0.789E-04  0.789E-04
   0.000  0.101E-03  0.101E-03
   0.050  0.132E-03  0.132E-03
   0.100  0.184E-03  0.184E-03
   0.150  0.343E-03  0.343E-03
   0.200  0.126E-02  0.126E-02
   0.250  0.667E-02  0.667E-02
   0.300  0.329E-01  0.329E-01
   0.350  0.133E+00  0.133E+00
   0.400  0.430E+00  0.430E+00
   0.450  0.112E+01  0.112E+01
   0.500  0.234E+01  0.234E+01
   0.550  0.397E+01  0.397E+01
   0.600  0.545E+01  0.545E+01
   0.650  0.604E+01  0.604E+01
   0.700  0.536E+01  0.536E+01
   0.750  0.378E+01  0.378E+01
   0.800  0.211E+01  0.211E+01
   0.850  0.920E+00  0.920E+00
   0.900  0.316E+00  0.316E+00
   0.950  0.869E-01  0.869E-01
   1.000  0.207E-01  0.207E-01
   1.050  0.535E-02  0.535E-02
   1.100  0.199E-02  0.199E-02
   1.150  0.989E-03  0.989E-03
   1.200  0.540E-03  0.540E-03
   1.250  0.302E-03  0.302E-03
   1.300  0.174E-03  0.174E-03
   1.350  0.109E-03  0.109E-03
   1.400  0.830E-04  0.830E-04
   1.450  0.918E-04  0.918E-04
   1.500  0.150E-03  0.150E-03
   1.550  0.322E-03  0.322E-03
   1.600  0.807E-03  0.807E-03
   1.650  0.205E-02  0.205E-02
   1.700  0.470E-02  0.470E-02
   1.750  0.917E-02  0.917E-02
   1.800  0.150E-01  0.150E-01
   1.850  0.208E-01  0.208E-01
   1.900  0.251E-01  0.251E-01
   1.950  0.269E-01  0.269E-01
   2.000  0.263E-01  0.263E-01
   2.050  0.242E-01  0.242E-01
   2.100  0.223E-01  0.223E-01
   2.150  0.249E-01  0.249E-01
   2.200  0.391E-01  0.391E-01
   2.250  0.769E-01  0.769E-01
   2.300  0.150E+00  0.150E+00
   2.350  0.263E+00  0.263E+00
   2.400  0.400E+00  0.400E+00
   2.450  0.528E+00  0.528E+00
   2.500  0.609E+00  0.609E+00
   2.550  0.610E+00  0.610E+00
   2.600  0.527E+00  0.527E+00
   2.650  0.393E+00  0.393E+00
   2.700  0.259E+00  0.259E+00
   2.750  0.159E+00  0.159E+00
   2.800  0.982E-01  0.982E-01
   2.850  0.656E-01  0.656E-01
   2.900  0.480E-01  0.480E-01
   2.950  0.372E-01  0.372E-01
   3.000  0.288E-01  0.288E-01
   3.050  0.219E-01  0.219E-01
   3.100  0.172E-01  0.172E-01
   3.150  0.156E-01  0.156E-01
   3.200  0.167E-01  0.167E-01
   3.250  0.183E-01  0.183E-01
   3.300  0.180E-01  0.180E-01
   3.350  0.149E-01  0.149E-01
   3.400  0.103E-01  0.103E-01
   3.450  0.586E-02  0.586E-02
   3.500  0.273E-02  0.273E-02
   3.550  0.103E-02  0.103E-02
   3.600  0.315E-03  0.315E-03
   3.650  0.772E-04  0.772E-04
   3.700  0.150E-04  0.150E-04
   3.750  0.230E-05  0.230E-05
   3.800  0.277E-06  0.277E-06
   3.850  0.259E-07  0.259E-07
   3.900  0.188E-08  0.188E-08
